19/03/2024	3:54 PM
Amplitude: 2.00 V
Freq  (Hz) 	 Gain (dB)  	 Phase (deg)
100.024             -0.583             -8.981
125.915             -0.651            -11.352
158.511             -0.736            -14.228
199.489             -0.896            -17.689
251.271             -1.125            -21.818
316.277             -1.470            -26.669
398.047             -1.948            -32.339
501.238             -2.626            -38.298
630.878             -3.516            -45.209
794.418             -4.645            -51.580
1000.054             -5.997            -57.635
1258.962             -7.512            -63.298
1584.925             -9.206            -68.177
1995.265            -10.973            -72.356
2511.963            -12.817            -75.774
3162.213            -14.706            -78.342
