19/03/2024	3:04 PM
Amplitude: 2.00 V
Freq  (Hz) 	 Gain (dB)  	 Phase (deg)
 19.930             -0.480             -1.797
 31.665             -0.486             -2.966
 50.291             -0.508             -4.612
 79.535             -0.548             -7.279
126.101             -0.651            -11.370
200.048             -0.898            -17.582
317.022             -1.468            -26.693
502.355             -2.638            -38.700
796.281             -4.664            -51.735
1261.942             -7.527            -63.144
1999.922            -10.999            -72.401
3169.850            -14.744            -78.482
5023.740            -18.625            -82.506
7962.063            -22.546            -84.609
12619.235            -26.573            -85.984
19999.966            -30.611            -86.543
31697.936            -34.539            -87.072
50237.775            -38.777            -84.944
79621.375            -43.055            -80.153
126191.415            -46.039            -77.425
200000.033            -49.795            -79.794
316978.619            -53.720            -79.087
502377.376            -57.829            -65.746
796214.305            -61.088            -48.560
1261914.708            -59.478            -25.251
1999999.955            -55.853             -6.605
