19/03/2024	4:45 PM
Amplitude: 2.00 V
Freq  (Hz) 	 Gain (dB)  	 Phase (deg)
140.071            -19.963             38.297
153.482            -19.584             40.542
168.383            -19.175             42.888
184.588            -18.728             44.840
202.283            -18.251             47.022
221.841            -17.734             48.978
243.261            -17.193             50.667
266.731            -16.622             52.341
292.435            -16.022             53.737
320.747            -15.407             55.148
351.667            -14.768             56.399
385.568            -14.114             57.358
422.820            -13.450             58.109
463.612            -12.779             58.613
508.316            -12.093             59.014
557.303            -11.415             59.028
611.134            -10.733             58.852
669.993            -10.047             58.626
734.814             -9.377             58.073
805.594             -8.706             57.293
883.266             -8.057             56.427
968.575             -7.363             55.199
1062.080             -6.759             54.002
1164.526             -6.164             52.526
1276.843             -5.592             50.804
1399.964             -5.044             48.911
1535.006             -4.528             46.925
1683.086             -4.034             44.982
1845.509             -3.579             42.736
2023.578             -3.166             40.554
2218.783             -2.795             38.220
