19/03/2024	4:56 PM
Amplitude: 2.00 V
Freq  (Hz) 	 Gain (dB)  	 Phase (deg)
 19.930             -1.794             -6.056
 25.146             -1.828             -7.714
 31.665             -1.882             -9.711
 39.861             -1.970            -12.120
 50.291             -2.110            -15.220
 63.330             -2.310            -18.829
 79.535             -2.610            -22.899
100.210             -3.044            -27.739
126.101             -3.667            -32.924
158.884             -4.503            -38.585
200.048             -5.545            -43.874
251.830             -6.797            -48.647
317.022             -8.251            -52.611
398.979             -9.809            -55.299
502.355            -11.443            -56.728
632.368            -13.100            -56.715
796.281            -14.749            -55.386
1002.289            -16.300            -52.677
1261.942            -17.729            -48.967
1588.650            -18.972            -44.351
1999.922            -19.999            -39.221
2517.924            -20.811            -33.937
3169.850            -21.417            -29.001
3990.531            -21.864            -24.517
5023.740            -22.167            -20.705
6324.612            -22.350            -17.601
7962.063            -22.495            -15.632
10023.825            -22.602            -14.196
12619.235            -22.664            -13.253
15886.500            -22.746            -12.958
19999.966            -22.848            -13.690
25178.492            -22.944            -14.973
31697.936            -23.094            -16.550
39905.310            -23.334            -19.419
50237.775            -23.636            -22.587
63245.557            -24.114            -26.146
79621.375            -24.760            -30.200
100237.504            -25.540            -33.456
126191.415            -26.521            -36.758
158865.564            -27.632            -39.479
200000.033            -28.926            -40.465
251785.107            -30.226            -40.693
316978.619            -31.445            -38.380
399052.538            -32.608            -35.293
502377.376            -33.559            -31.911
632455.572            -34.324            -27.438
796214.305            -34.892            -23.479
1002374.478            -35.296            -19.038
1261914.708            -35.555            -15.827
1588656.381            -35.769            -12.963
1999999.955            -35.921            -10.727
