19/03/2024	4:53 PM
Amplitude: 2.00 V
Freq  (Hz) 	 Gain (dB)  	 Phase (deg)
 19.930             -1.795             -6.251
 25.146             -1.827             -7.705
 31.665             -1.880             -9.799
 39.861             -1.963            -12.089
 50.291             -2.113            -15.234
 63.330             -2.311            -18.746
 79.535             -2.610            -23.017
100.210             -3.048            -27.774
126.101             -3.665            -33.058
158.884             -4.495            -38.459
200.048             -5.534            -43.707
251.830             -6.781            -48.520
317.022             -8.253            -52.569
398.979             -9.810            -55.342
502.355            -11.441            -56.718
632.368            -13.100            -56.723
796.281            -14.751            -55.417
1002.289            -16.297            -52.767
1261.942            -17.721            -49.056
1588.650            -18.970            -44.324
1999.922            -19.999            -39.242
2517.924            -20.807            -33.997
3169.850            -21.422            -28.862
3990.531            -21.854            -24.577
5023.740            -22.156            -20.952
6324.612            -22.358            -17.817
7962.063            -22.498            -15.702
10023.825            -22.600            -14.429
12619.235            -22.675            -13.368
15886.500            -22.745            -13.277
19999.966            -22.828            -14.103
