22/03/2024	4:27 PM
Amplitude: 2.00 V
Freq  (Hz) 	 Gain (dB)  	 Phase (deg)
 10.058            -32.036            121.633
 12.666            -64.379             61.656
 15.832            -61.816             12.998
 19.930            -59.902            -12.067
 25.146            -54.478             -6.745
 31.665            -51.594            -12.154
 39.861            -47.214            -16.761
 50.105            -43.479            -21.549
 63.144            -39.876            -30.074
 79.349            -36.483            -31.239
100.024            -32.996            -39.830
125.915            -29.844            -46.918
158.511            -26.899            -54.281
199.489            -24.166            -60.574
251.271            -21.695            -66.885
316.277            -19.379            -74.094
398.047            -17.170            -80.087
501.238            -15.072            -85.652
630.878            -13.045            -91.427
794.418            -11.106            -96.924
1000.054             -9.262            -102.698
1258.962             -7.558            -108.829
1584.925             -5.936            -115.664
1995.265             -4.511            -122.482
2511.963             -3.325            -129.833
3162.213             -2.368            -136.946
3981.031             -1.632            -143.952
5011.819             -1.089            -150.298
6309.524             -0.686            -155.715
7943.250             -0.413            -159.944
9999.983             -0.242            -164.147
12589.246             -0.154            -167.556
15848.875             -0.078            -170.404
19952.655             -0.013            -172.605
