22/03/2024	3:17 PM
Amplitude: 2.00 V
Freq  (Hz) 	 Gain (dB)  	 Phase (deg)
 49.919            -43.683            -20.819
 62.957            -40.036            -25.799
 79.162            -36.519            -31.638
 99.838            -33.048            -38.806
125.542            -29.817            -46.284
158.139            -26.934            -53.619
199.117            -24.165            -60.364
250.526            -21.732            -66.426
315.532            -19.383            -73.911
397.116            -17.191            -80.003
499.934            -15.086            -85.790
629.388            -13.057            -91.244
792.369            -11.120            -96.818
997.633             -9.271            -102.563
1255.982             -7.554            -108.654
1581.199             -5.949            -115.466
1990.609             -4.502            -122.295
2506.003             -3.320            -129.693
3154.762             -2.378            -136.936
3971.718             -1.630            -143.748
5000.085             -1.100            -150.491
6294.623             -0.702            -155.410
7924.438             -0.421            -160.091
9976.327             -0.268            -164.502
12559.444             -0.139            -167.855
15811.436             -0.084            -170.787
19905.344             -0.015            -172.918
25059.283              0.012            -174.523
31547.807              0.054            -176.085
39716.437              0.082            -177.763
49999.915              0.077            -179.139
