22/03/2024	4:21 PM
Amplitude: 2.00 V
Freq  (Hz) 	 Gain (dB)  	 Phase (deg)
 49.919            -43.123              1.970
 58.301            -40.249             -5.826
 67.987            -37.618             -0.807
 79.162            -34.773             -2.340
 92.387            -32.286             -6.272
107.661            -29.423             -3.455
125.542            -26.558             -4.296
146.404            -23.808             -4.488
170.805            -20.930             -5.765
199.117            -18.018             -6.784
232.086            -15.002             -8.327
270.642            -11.780            -10.556
315.532             -8.366            -13.118
367.872             -4.490            -17.624
428.781             -0.147            -25.452
499.934              5.079            -42.155
583.008              9.811            -83.098
679.679              8.836            -130.531
792.369              6.093            -151.457
923.872              4.164            -160.963
1077.168              2.907            -165.905
1255.982              2.062            -169.130
1464.412              1.486            -171.166
1707.301              1.077            -172.857
1990.609              0.781            -174.029
2320.856              0.571            -175.086
2705.865              0.422            -175.928
3154.762              0.315            -176.543
3678.165              0.225            -177.186
4288.554              0.177            -177.800
5000.085              0.142            -178.174
5829.521              0.107            -178.283
6796.792              0.070            -178.766
7924.438              0.033            -179.224
9239.279              0.033            -179.505
