22/03/2024	4:29 PM
Amplitude: 2.00 V
Freq  (Hz) 	 Gain (dB)  	 Phase (deg)
 49.919            -43.743            -20.705
 58.301            -41.048            -27.414
 67.987            -38.725            -29.766
 79.162            -36.383            -31.908
 92.387            -34.214            -36.359
107.661            -31.981            -40.469
125.542            -29.913            -46.683
146.404            -27.856            -51.672
170.805            -25.983            -55.963
199.117            -24.203            -60.814
232.086            -22.545            -65.042
270.642            -20.933            -70.088
315.532            -19.396            -74.036
367.872            -17.926            -78.314
428.781            -16.493            -81.800
499.934            -15.103            -85.609
583.008            -13.732            -89.462
679.679            -12.405            -93.107
792.369            -11.132            -96.825
923.872             -9.894            -100.610
1077.168             -8.688            -104.602
1255.982             -7.583            -108.907
1464.412             -6.461            -112.859
1707.301             -5.438            -117.714
1990.609             -4.524            -122.528
2320.856             -3.693            -127.487
2705.865             -2.976            -132.174
3154.762             -2.372            -136.776
3678.165             -1.848            -141.603
4288.554             -1.440            -146.236
5000.085             -1.085            -150.229
5829.521             -0.830            -153.557
6796.792             -0.618            -157.257
7924.438             -0.443            -160.409
9239.279             -0.290            -163.119
