22/03/2024	4:25 PM
Amplitude: 2.00 V
Freq  (Hz) 	 Gain (dB)  	 Phase (deg)
 49.919            -42.932             -1.945
 58.301            -40.396             -5.624
 67.987            -37.658            -12.175
 79.162            -35.051            -12.026
 92.387            -32.384            -12.997
107.661            -29.706            -15.474
125.542            -27.052            -19.156
146.404            -24.342            -20.746
170.805            -21.709            -24.367
199.117            -19.090            -28.684
232.086            -16.496            -33.687
270.642            -13.940            -39.997
315.532            -11.443            -46.942
367.872             -9.074            -55.263
428.781             -6.868            -65.179
499.934             -4.919            -76.371
583.008             -3.350            -88.209
679.679             -2.180            -100.481
792.369             -1.362            -111.741
923.872             -0.823            -122.174
1077.168             -0.484            -131.032
1255.982             -0.278            -138.529
1464.412             -0.153            -144.832
1707.301             -0.092            -150.154
1990.609             -0.064            -154.543
2320.856             -0.027            -158.351
2705.865              0.000            -161.706
3154.762             -0.009            -164.297
3678.165              0.007            -166.593
4288.554             -0.005            -169.000
5000.085             -0.002            -170.149
5829.521              0.002            -171.529
6796.792              0.007            -173.002
7924.438             -0.013            -174.468
9239.279              0.013            -175.119
