22/03/2024	3:14 PM
Amplitude: 2.00 V
Freq  (Hz) 	 Gain (dB)  	 Phase (deg)
 19.930             -2.031            -45.379
 25.146             13.525            108.005
 31.665            -51.026            -23.880
 39.861            -47.176            -15.985
 50.291            -43.460            -22.854
 63.330            -40.045            -30.189
 79.535            -36.392            -35.913
100.210            -32.961            -39.252
126.101            -29.760            -47.824
158.884            -26.843            -53.966
200.048            -24.203            -61.608
251.830            -21.656            -65.772
317.022            -19.351            -74.280
398.979            -17.166            -80.040
502.355            -15.043            -85.892
632.368            -13.024            -91.441
796.281            -11.086            -97.090
1002.289             -9.240            -102.641
1261.942             -7.522            -108.881
1588.650             -5.912            -115.663
1999.922             -4.491            -122.667
2517.924             -3.323            -129.914
3169.850             -2.358            -137.088
3990.531             -1.638            -144.270
5023.740             -1.047            -150.604
6324.612             -0.703            -155.295
7962.063             -0.429            -160.118
10023.825             -0.273            -164.816
12619.235             -0.152            -167.768
15886.500             -0.098            -170.817
19999.966             -0.040            -172.685
