22/03/2024	3:46 PM
Amplitude: 2.00 V
Freq  (Hz) 	 Gain (dB)  	 Phase (deg)
200.048             -0.086            151.103
205.822             -0.093            150.225
211.783             -0.101            149.412
218.116             -0.115            148.482
224.449             -0.122            147.357
230.968             -0.138            146.353
237.674             -0.147            145.449
244.565             -0.171            144.308
251.830             -0.188            143.082
259.094             -0.217            141.976
266.731             -0.232            140.811
274.554             -0.260            139.446
282.563             -0.289            138.362
290.759             -0.314            136.872
299.327             -0.347            135.566
307.895             -0.380            134.224
317.022             -0.425            132.681
326.149             -0.473            131.144
335.835             -0.520            129.498
345.521             -0.578            128.002
