22/03/2024	3:25 PM
Amplitude: 2.00 V
Freq  (Hz) 	 Gain (dB)  	 Phase (deg)
  0.931              0.010            179.594
  1.304              0.008            179.359
  1.676              0.007            179.266
  2.049              0.006            179.022
  2.421              0.006            178.916
  3.166              0.003            178.594
  3.912              0.007            178.146
  5.029              0.003            177.662
  6.333             -0.001            177.204
  8.009             -0.009            176.326
 10.058             -0.017            175.349
 12.666             -0.028            174.196
 15.832             -0.051            172.608
 19.930             -0.086            170.975
 25.146             -0.149            168.543
 31.665             -0.236            165.816
 39.861             -0.378            162.095
 50.105             -0.585            157.877
 63.144             -0.910            152.882
 79.349             -1.358            147.006
100.024             -1.995            140.316
125.915             -2.833            133.288
158.511             -3.905            126.101
199.489             -5.206            118.870
251.271             -6.743            112.017
316.277             -8.419            105.600
398.047            -10.215             99.586
501.238            -12.106             93.968
630.878            -14.092             88.376
794.418            -16.147             82.758
1000.054            -18.307             77.047
1258.962            -20.565             70.753
1584.925            -22.982             64.288
1995.265            -25.564             57.094
2511.963            -28.346             49.932
3162.213            -31.362             42.746
3981.031            -34.583             35.671
5011.819            -38.125             29.862
6309.524            -41.707             24.155
7943.250            -45.491             19.515
9999.983            -49.287             15.268
12589.246            -53.114             11.261
15848.875            -57.056              9.758
19952.655            -61.097              7.174
